WAGYRO;10
Time;Ax;Ay;Az;Gx;Gy;Gz;Hx;Hy;Hz;Temp;AnBat;Angle
0;805;809;765;765;764;384;-285;-168;382;230;860;179;
1;805;809;765;764;764;384;-285;-167;375;230;860;284;
2;805;809;765;764;764;384;-284;-171;384;230;859;209;
3;805;809;765;764;764;384;-281;-167;378;230;860;209;
4;805;808;765;765;764;384;-276;-174;381;230;859;198;
5;805;808;764;765;764;384;-279;-171;377;230;860;199;
6;805;809;765;765;764;384;-280;-169;378;230;859;279;
7;805;809;765;764;764;384;-279;-166;381;230;860;278;
8;805;809;765;765;764;385;-280;-169;380;230;859;283;
9;805;809;765;765;764;384;-284;-169;377;230;859;282;
10;805;808;764;764;764;384;-283;-173;383;230;859;282;
11;805;809;765;765;764;384;-284;-168;379;230;859;282;
12;805;808;765;765;764;384;-284;-170;381;230;859;282;
13;805;808;764;765;764;384;-281;-170;375;230;859;283;
14;805;809;765;765;764;384;-284;-173;379;230;859;282;
15;806;809;765;765;764;384;-284;-167;375;230;859;207;
16;805;809;765;764;764;384;-282;-175;376;229;859;207;
17;805;809;765;765;764;384;-285;-169;382;230;858;197;
18;805;809;764;765;764;384;-282;-172;380;230;859;272;
19;805;808;764;764;764;384;-279;-166;377;230;858;277;
20;805;808;764;765;764;384;-282;-168;377;230;859;277;
21;805;808;765;765;764;384;-282;-165;379;230;858;281;
22;805;809;765;765;764;384;-278;-177;378;230;859;281;
23;805;809;765;765;764;384;-277;-171;379;230;858;281;
24;805;809;766;765;764;384;-284;-171;377;230;859;281;
25;805;809;765;765;764;384;-282;-170;373;230;858;281;
26;805;809;765;765;764;384;-283;-161;383;230;858;280;
27;805;809;765;765;764;384;-276;-168;375;230;858;280;
28;805;809;765;765;764;384;-274;-169;387;230;858;205;
29;805;809;765;765;764;384;-283;-168;374;230;858;205;
30;805;809;765;765;764;384;-285;-172;374;230;858;195;
31;805;808;765;764;764;384;-282;-166;376;230;858;275;
32;805;809;765;764;764;384;-280;-168;378;230;858;275;
33;805;809;765;765;764;384;-285;-171;376;230;858;275;
34;805;809;765;765;765;384;-282;-168;378;230;857;279;
35;805;809;765;765;764;384;-282;-163;381;230;858;279;
36;805;809;764;764;764;384;-276;-164;378;230;857;279;
37;805;809;764;765;764;384;-280;-168;377;230;858;279;
38;805;808;764;765;764;384;-282;-171;378;230;857;278;
39;805;808;764;764;764;384;-280;-171;379;230;858;278;
40;805;809;765;765;764;384;-284;-169;383;230;857;278;
41;805;809;765;765;764;384;-279;-172;378;230;858;202;
42;805;809;765;765;764;384;-283;-171;373;230;857;203;
43;804;809;765;764;764;384;-283;-166;379;230;858;193;
44;805;809;765;764;764;384;-280;-170;378;230;858;273;
45;805;809;764;765;764;384;-276;-170;380;230;858;274;
46;805;808;765;765;764;384;-277;-172;375;230;858;274;
47;805;808;765;765;764;384;-286;-168;375;230;858;278;
48;805;809;764;764;764;384;-282;-173;380;230;858;278;
49;805;809;765;765;764;384;-284;-166;374;230;857;278;
50;805;809;764;765;764;384;-279;-171;376;230;858;278;
51;805;809;765;765;764;384;-278;-167;377;230;857;277;
52;805;809;765;765;764;384;-291;-162;375;230;858;278;
53;805;809;765;765;764;384;-276;-168;379;230;857;277;
54;805;809;765;764;764;384;-288;-173;380;230;857;203;
55;805;809;764;765;764;384;-284;-168;379;230;857;203;
56;805;809;764;764;765;384;-279;-167;378;230;857;193;
57;805;809;765;765;764;384;-284;-164;379;230;857;273;
58;805;809;765;765;765;384;-283;-169;374;230;857;273;
59;805;809;765;765;764;384;-285;-167;382;230;857;277;
60;805;809;765;764;764;384;-284;-168;379;230;857;278;
61;804;809;765;764;764;384;-276;-164;374;230;857;278;
62;805;809;765;765;764;384;-291;-165;380;230;857;278;
63;805;809;764;765;764;384;-276;-167;379;230;857;278;
64;805;808;764;765;764;384;-279;-168;376;230;857;278;
65;805;809;764;764;764;384;-285;-169;377;230;857;279;
66;805;809;765;764;764;384;-288;-166;378;230;856;277;
67;805;809;766;765;764;384;-282;-166;379;230;857;203;
68;805;809;765;765;765;384;-281;-170;382;230;856;203;
69;805;809;765;764;764;384;-276;-170;381;230;857;193;
70;805;808;765;765;764;384;-282;-167;378;230;856;274;
71;805;809;765;764;764;384;-284;-167;375;230;857;275;
72;805;809;765;764;764;384;-285;-167;375;230;856;279;
73;805;809;764;765;765;384;-286;-165;378;230;857;279;
74;805;809;764;765;764;384;-285;-171;377;230;856;279;
75;805;809;765;765;764;384;-284;-166;378;230;857;279;
76;805;808;765;764;764;385;-283;-169;382;230;856;279;
77;805;809;765;764;764;384;-290;-166;383;230;857;279;
78;805;809;765;764;764;384;-285;-173;379;230;857;279;
79;805;809;765;764;765;384;-281;-170;383;230;857;204;
80;805;809;765;765;764;384;-280;-162;382;230;857;204;
81;805;809;765;765;764;384;-284;-167;377;230;856;198;
82;805;808;765;765;764;384;-286;-168;376;230;857;195;
83;805;808;765;764;764;384;-282;-168;374;230;856;276;
84;805;808;765;765;764;384;-277;-172;382;230;856;276;
85;805;809;765;765;765;384;-279;-172;380;230;856;280;
86;805;809;765;765;764;384;-281;-166;379;230;856;280;
87;805;809;765;765;765;384;-286;-166;375;230;856;281;
88;805;808;765;765;765;384;-285;-168;377;230;856;281;
89;805;809;765;764;764;384;-285;-167;386;230;856;281;
90;805;809;765;765;764;384;-278;-172;385;230;856;281;
91;806;809;765;765;764;384;-281;-168;379;230;856;282;
92;805;809;765;765;764;384;-280;-167;377;230;856;207;
93;805;809;764;765;765;384;-286;-164;380;230;856;208;
94;805;809;765;765;765;384;-281;-165;375;230;856;202;
95;805;808;765;765;764;384;-274;-170;376;230;856;198;
96;805;809;765;765;764;384;-290;-169;378;230;856;278;
97;805;809;765;765;764;384;-287;-169;382;231;856;278;
98;805;809;765;764;764;384;-285;-170;375;231;856;283;
99;805;809;765;764;765;384;-280;-168;380;230;856;283;
0;805;808;764;765;765;384;-288;-171;378;230;855;282;
1;805;808;764;765;765;384;-284;-169;382;230;855;281;
2;805;808;765;765;764;384;-278;-170;376;230;855;290;
3;805;809;765;765;764;384;-285;-167;374;230;856;283;
4;805;809;765;765;765;384;-284;-167;376;230;855;283;
5;805;809;765;764;765;385;-287;-174;370;231;852;209;
6;805;809;765;765;765;384;-288;-168;380;230;855;209;
7;805;809;765;764;764;384;-277;-167;377;230;856;204;
8;805;809;765;765;764;384;-287;-171;373;230;855;199;
9;805;808;764;765;764;384;-286;-167;381;230;855;280;
10;805;809;765;765;764;384;-287;-168;377;230;855;280;
11;805;809;765;765;764;384;-282;-167;376;231;856;283;
12;805;809;765;764;764;384;-279;-165;379;231;856;284;
13;805;808;766;765;765;384;-285;-166;378;230;855;284;
14;805;809;765;765;764;384;-288;-169;379;230;855;285;
15;805;809;765;765;764;384;-284;-168;376;230;856;284;
16;805;809;765;765;764;384;-278;-170;385;230;856;285;
17;805;809;764;765;764;384;-287;-169;380;230;854;284;
18;805;809;764;765;764;384;-284;-172;382;230;855;211;
19;805;808;764;764;764;384;-285;-169;382;231;855;212;
20;805;808;765;764;764;384;-287;-170;379;230;855;201;
21;806;808;765;765;764;384;-282;-172;385;230;854;201;
22;805;809;765;765;764;384;-283;-170;375;231;855;282;
23;805;809;765;765;764;384;-286;-171;381;230;855;282;
24;805;810;765;764;764;384;-278;-166;376;231;855;284;
25;805;809;766;765;764;384;-284;-169;378;231;854;286;
26;805;809;765;765;764;384;-282;-170;377;230;855;286;
27;805;808;764;765;764;384;-283;-164;376;230;855;286;
28;805;808;764;765;764;384;-283;-162;377;230;855;285;
29;805;809;765;765;764;384;-286;-164;373;231;854;285;
30;805;809;765;765;764;384;-279;-170;373;230;855;286;
31;806;809;766;765;764;384;-285;-160;379;230;855;212;
32;805;809;765;765;764;384;-286;-168;381;230;854;211;
33;805;809;765;765;764;385;-284;-166;378;231;854;201;
34;805;808;764;765;765;384;-282;-166;379;230;854;201;
35;805;809;765;765;764;384;-276;-160;374;231;855;282;
36;805;809;764;764;765;384;-284;-168;375;231;854;281;
37;805;809;765;765;765;384;-277;-168;377;231;854;285;
38;805;809;765;765;764;384;-274;-163;376;231;854;285;
39;805;809;765;764;765;384;-289;-170;378;230;855;285;
40;805;809;766;765;764;384;-279;-166;377;230;854;285;
41;805;809;765;764;764;384;-285;-164;375;231;854;285;
42;805;809;765;765;764;384;-287;-171;379;230;854;285;
43;805;809;765;764;764;384;-288;-162;381;230;854;285;
44;805;808;764;765;764;384;-283;-167;376;231;854;212;
45;805;809;764;764;764;384;-287;-169;377;230;854;211;
46;805;808;765;765;764;384;-272;-170;376;230;854;201;
47;805;809;765;765;764;384;-284;-170;382;231;854;276;
48;805;809;764;764;764;384;-288;-166;377;231;854;281;
49;805;809;765;765;765;384;-279;-165;380;231;854;281;
50;805;809;765;765;765;384;-281;-168;376;231;854;285;
51;805;809;765;765;765;384;-283;-167;381;231;854;284;
52;805;809;766;765;765;384;-284;-169;373;231;854;285;
53;805;809;765;764;765;384;-283;-165;380;230;854;284;
54;805;809;765;765;765;384;-285;-168;381;231;854;284;
55;805;809;765;765;764;384;-279;-169;378;230;854;284;
56;805;809;765;764;764;384;-283;-169;380;230;854;284;
57;805;809;765;765;764;384;-275;-165;377;230;854;210;
58;805;809;765;765;765;384;-284;-163;381;230;854;210;
59;805;809;765;764;764;384;-280;-168;378;230;854;200;
60;805;809;765;765;765;384;-279;-160;382;230;855;279;
61;805;809;765;765;765;384;-275;-167;384;231;854;280;
62;805;809;765;765;764;384;-283;-168;379;231;854;280;
63;805;809;765;765;764;384;-284;-169;378;231;854;283;
64;805;808;765;765;764;384;-281;-163;374;231;854;283;
65;805;809;765;764;765;384;-281;-169;387;231;854;283;
66;805;809;765;765;764;384;-285;-167;381;231;854;282;
67;805;808;765;764;765;384;-286;-170;383;231;854;282;
68;805;809;765;765;765;384;-281;-166;379;231;854;281;
69;805;810;765;765;765;384;-283;-164;382;231;854;281;
70;805;809;765;764;764;384;-285;-165;378;231;854;207;
71;805;809;765;765;765;384;-279;-170;382;231;854;207;
72;805;809;765;765;764;384;-282;-169;377;231;854;196;
73;805;809;765;765;764;384;-278;-161;379;231;854;277;
74;805;809;764;765;765;384;-288;-167;384;231;854;277;
75;805;809;765;764;764;384;-282;-170;382;231;854;277;
76;805;809;765;765;764;384;-279;-165;378;231;854;281;
77;805;809;765;765;765;384;-282;-163;378;231;854;282;
78;805;809;765;764;764;384;-281;-166;376;231;854;282;
79;805;809;765;765;764;384;-281;-167;384;231;854;281;
80;805;809;765;765;764;384;-272;-163;384;231;854;281;
81;805;808;765;765;765;384;-280;-168;378;231;854;280;
82;805;809;765;765;764;384;-279;-165;378;231;854;280;
83;805;809;764;765;764;384;-280;-167;379;231;854;206;
84;805;808;764;765;764;384;-283;-161;380;231;854;206;
85;805;809;764;764;764;384;-275;-169;384;231;854;196;
86;805;809;765;765;765;384;-281;-166;376;231;854;276;
87;804;809;765;765;764;384;-285;-162;375;231;854;275;
88;805;809;765;765;765;384;-281;-166;376;231;854;280;
89;805;808;765;765;765;384;-282;-162;381;231;853;280;
90;805;809;765;764;764;384;-279;-166;381;231;854;280;
91;805;809;765;764;764;384;-280;-162;381;231;854;279;
92;805;809;765;764;764;384;-283;-168;376;231;854;279;
93;805;809;765;765;765;384;-282;-166;382;231;854;279;
94;805;809;765;764;764;384;-285;-170;376;231;854;278;
95;805;809;765;765;765;384;-279;-163;381;231;854;277;
96;804;809;765;765;764;384;-284;-166;379;231;854;203;
97;805;809;765;765;765;384;-281;-164;380;231;854;203;
98;805;809;765;765;764;384;-281;-169;379;231;854;194;
99;805;809;765;765;764;384;-273;-168;380;231;854;274;
0;805;809;765;765;764;384;-282;-167;384;231;853;273;
1;805;809;765;765;764;384;-281;-166;385;231;853;277;
2;805;809;764;765;764;384;-283;-161;382;231;853;284;
3;805;808;764;765;765;384;-275;-164;387;231;853;277;
4;805;808;765;765;765;384;-280;-162;381;231;853;277;
5;805;809;765;765;764;384;-275;-170;379;231;854;278;
6;805;809;765;765;764;384;-281;-167;376;231;853;277;
7;805;809;765;765;765;384;-273;-161;375;231;853;277;
8;805;809;765;764;764;384;-280;-167;379;231;853;203;
9;804;809;765;765;765;384;-276;-166;378;231;854;202;
10;805;809;764;765;764;384;-280;-165;379;231;853;197;
11;805;808;764;765;764;384;-282;-161;376;231;852;193;
12;805;809;765;765;764;384;-278;-167;378;231;854;273;
13;805;809;765;765;764;384;-284;-162;378;231;853;273;
14;805;809;765;765;764;384;-286;-163;377;231;853;277;
15;805;809;765;764;764;384;-273;-164;382;231;853;277;
16;805;809;765;765;764;384;-283;-166;376;231;853;277;
17;805;808;765;765;764;384;-279;-162;377;231;853;277;
18;805;808;765;765;764;384;-275;-164;382;231;854;277;
19;805;808;764;765;765;384;-277;-167;374;231;852;277;
20;805;809;765;765;764;384;-280;-161;377;231;853;277;
21;805;809;765;764;765;384;-280;-169;382;231;853;202;
22;805;809;765;764;764;384;-281;-164;375;231;853;202;
23;805;809;765;765;764;384;-275;-167;384;231;852;197;
24;805;809;765;765;764;384;-281;-164;378;231;853;193;
25;805;809;765;765;764;384;-277;-163;372;231;853;273;
26;805;809;765;765;764;384;-272;-167;375;231;853;274;
27;805;809;765;764;764;384;-281;-169;382;231;853;278;
28;805;809;765;765;764;384;-281;-162;387;231;853;278;
29;805;809;765;765;764;384;-277;-164;386;231;853;278;
30;805;808;764;765;764;384;-282;-167;385;231;853;278;
31;804;809;765;765;764;384;-276;-167;376;231;853;278;
32;805;808;764;765;764;384;-285;-161;378;231;853;278;
33;805;809;765;765;764;384;-282;-163;381;231;853;278;
34;805;809;765;765;764;384;-280;-165;379;231;852;203;
35;804;809;765;764;764;384;-281;-166;380;231;853;204;
36;805;808;765;765;765;384;-280;-160;382;231;852;198;
37;804;808;764;764;764;384;-280;-164;377;231;853;194;
38;805;808;764;765;764;384;-273;-157;381;231;852;274;
39;805;808;764;765;764;384;-274;-164;382;231;852;274;
40;805;809;764;765;764;384;-286;-165;377;231;852;277;
41;805;808;764;765;765;384;-275;-161;386;231;853;278;
42;805;809;765;765;764;384;-272;-166;380;231;852;278;
43;805;809;765;765;765;384;-280;-166;378;231;852;278;
44;805;809;765;765;764;384;-280;-166;382;231;853;279;
45;805;809;765;765;764;384;-279;-166;380;231;852;279;
46;805;808;765;765;764;384;-279;-166;387;231;852;279;
47;804;808;766;764;764;384;-282;-166;382;230;852;205;
48;804;809;765;765;764;384;-283;-165;387;231;852;206;
49;805;809;765;765;764;384;-275;-165;384;231;853;196;
50;805;809;765;765;765;384;-277;-172;381;231;853;196;
51;805;809;765;765;764;384;-278;-167;379;231;852;277;
52;805;809;765;765;765;384;-281;-168;383;231;853;277;
53;805;809;765;765;765;384;-279;-167;382;231;852;281;
54;805;808;765;765;764;384;-278;-156;377;231;853;281;
55;805;808;765;765;765;384;-286;-166;382;231;852;281;
56;805;808;765;765;764;384;-283;-169;380;231;853;282;
57;804;809;765;765;764;384;-283;-166;384;231;852;281;
58;804;809;765;765;764;384;-281;-160;381;231;852;282;
59;805;809;765;765;764;384;-279;-165;383;231;852;281;
60;805;808;764;765;765;384;-275;-168;379;231;853;208;
61;805;809;765;764;764;384;-279;-167;376;231;853;208;
62;805;809;765;765;765;384;-283;-169;380;231;853;198;
63;805;809;765;765;764;384;-279;-161;380;231;853;198;
64;805;809;765;765;764;384;-280;-169;381;231;853;278;
65;805;809;764;765;764;384;-285;-163;381;231;853;278;
66;805;808;764;764;765;384;-280;-166;380;231;853;283;
67;805;809;765;765;765;384;-276;-167;379;231;853;282;
68;805;809;765;765;764;384;-286;-161;377;231;852;282;
69;804;808;765;765;764;384;-283;-163;383;231;853;283;
70;804;808;763;764;764;384;-276;-162;382;231;852;283;
71;803;808;763;765;764;384;-277;-160;382;231;853;283;
72;804;806;762;764;764;384;-280;-169;388;231;852;282;
73;803;803;757;764;764;384;-273;-165;384;231;853;210;
74;802;803;753;764;765;384;-277;-164;385;231;852;209;
75;800;801;752;764;765;384;-284;-162;376;231;853;200;
76;799;801;751;765;765;383;-276;-159;382;231;852;275;
77;798;801;748;763;764;381;-280;-153;380;231;853;280;
78;801;802;751;761;764;379;-275;-158;380;231;853;280;
79;801;801;757;761;764;378;-277;-154;380;231;853;284;
80;803;803;759;762;765;378;-284;-150;377;231;853;284;
81;803;803;763;762;766;379;-275;-150;377;231;853;284;
82;804;804;767;762;766;380;-279;-138;381;231;853;282;
83;806;803;771;763;765;382;-280;-135;382;231;853;282;
84;804;805;770;763;765;383;-277;-134;386;231;853;282;
85;812;811;747;763;765;387;-276;-134;385;231;852;282;
86;807;805;775;762;768;390;-271;-126;379;231;853;208;
87;803;806;778;763;766;392;-263;-112;392;231;852;208;
88;804;806;775;764;765;391;-263;-99;385;231;853;198;
89;802;806;773;765;764;389;-258;-99;389;231;852;277;
90;803;805;771;765;765;387;-261;-95;387;231;853;278;
91;805;806;775;766;765;387;-260;-94;393;231;852;278;
92;804;808;768;766;765;386;-260;-98;400;232;853;282;
93;806;809;770;765;765;386;-255;-96;397;232;852;282;
94;804;806;770;765;765;386;-246;-99;395;231;853;282;
95;803;806;770;765;764;385;-262;-96;401;231;853;282;
96;803;806;769;766;764;385;-256;-100;394;231;852;282;
97;803;807;767;765;765;384;-255;-100;399;231;853;281;
98;803;806;768;765;765;384;-248;-100;399;231;853;281;
99;802;805;767;765;765;384;-253;-98;393;231;853;208;
0;802;806;766;765;765;384;-257;-104;397;231;852;208;
1;802;807;766;765;764;384;-252;-103;392;231;852;197;
2;801;807;765;765;764;384;-257;-112;396;231;852;285;
3;802;805;765;764;764;383;-253;-102;397;232;852;278;
4;801;802;764;764;764;383;-256;-113;397;232;850;277;
5;801;802;764;765;764;384;-257;-109;394;232;852;283;
6;801;802;764;765;765;385;-251;-112;400;231;852;282;
7;800;801;764;765;765;384;-254;-113;399;231;852;282;
8;800;802;764;765;764;384;-256;-109;399;231;851;281;
9;800;803;764;765;764;384;-252;-113;401;231;852;281;
10;800;804;764;765;765;384;-257;-116;402;231;852;281;
11;801;805;765;765;764;385;-251;-117;396;231;852;273;
12;801;803;765;765;764;385;-252;-112;403;231;852;207;
13;801;804;765;765;765;385;-256;-112;405;231;852;207;
14;801;806;765;765;764;385;-252;-121;397;231;852;197;
15;801;805;766;765;764;384;-252;-117;396;232;852;277;
16;802;805;765;765;764;384;-252;-114;396;232;851;277;
17;801;805;765;765;764;384;-254;-116;399;232;852;282;
18;801;805;765;765;764;385;-255;-117;402;232;852;282;
19;801;805;765;765;765;384;-250;-112;401;231;851;281;
20;801;805;765;765;765;384;-251;-120;401;232;851;281;
21;801;805;765;765;764;384;-256;-116;403;232;851;281;
22;801;805;765;765;764;384;-256;-119;396;232;852;282;
23;801;805;765;765;765;384;-251;-123;401;231;851;281;
24;801;805;765;765;764;385;-252;-118;395;231;851;280;
25;801;805;765;765;765;384;-254;-120;399;231;851;207;
26;801;804;764;765;765;384;-248;-119;396;231;852;207;
27;801;804;765;765;764;385;-252;-117;402;231;852;197;
28;801;805;766;765;765;384;-254;-123;402;232;850;277;
29;801;804;765;765;764;384;-255;-119;405;232;850;277;
30;800;804;765;764;765;385;-253;-122;399;232;851;281;
31;801;804;765;765;764;384;-251;-118;400;232;850;281;
32;801;804;764;765;765;384;-260;-119;400;232;849;280;
33;801;805;767;765;765;384;-251;-121;402;231;850;280;
34;802;806;766;765;765;384;-254;-125;401;232;849;280;
35;802;807;767;765;765;384;-251;-119;400;232;850;280;
36;803;807;768;764;765;384;-251;-123;402;231;850;280;
37;804;808;770;765;765;384;-251;-120;404;231;851;207;
38;808;808;769;765;765;383;-251;-124;403;231;850;207;
39;808;812;770;765;764;383;-250;-118;400;232;849;200;
40;806;815;772;764;764;382;-246;-121;402;231;849;197;
41;805;813;777;764;762;381;-253;-118;403;232;850;274;
42;806;814;773;764;762;381;-252;-118;402;232;846;275;
43;809;811;770;764;763;381;-255;-120;393;232;849;280;
44;805;805;770;765;763;381;-258;-123;392;232;847;280;
45;803;804;768;764;763;383;-264;-129;393;232;849;281;
46;803;805;771;766;764;385;-268;-126;385;232;850;280;
47;802;803;767;766;765;387;-267;-129;388;232;850;281;
48;802;803;761;765;766;389;-260;-131;391;232;850;280;
49;800;803;766;764;767;390;-256;-121;398;231;850;280;
50;796;804;769;766;766;389;-255;-123;404;231;850;206;
51;795;804;767;769;765;385;-248;-135;403;231;850;206;
52;792;807;759;768;762;383;-245;-145;407;231;850;200;
53;797;807;758;765;762;381;-251;-147;399;232;849;196;
54;798;797;757;765;763;382;-256;-149;399;232;850;275;
55;799;799;757;764;764;383;-258;-153;393;232;850;275;
56;799;803;753;764;765;383;-258;-151;395;232;851;279;
57;798;804;757;764;763;383;-256;-154;397;232;849;279;
58;801;802;756;764;764;383;-256;-158;389;231;850;279;
59;802;806;761;764;763;384;-262;-155;395;232;850;278;
60;802;802;760;765;763;384;-264;-152;392;232;850;278;
61;801;808;764;764;763;384;-263;-152;392;231;848;277;
62;804;806;763;765;764;385;-272;-150;390;232;850;277;
63;803;807;766;766;765;385;-273;-153;393;231;850;202;
64;804;807;763;766;764;384;-270;-160;388;231;850;202;
65;804;808;761;767;764;384;-268;-162;388;232;850;197;
66;802;809;762;766;764;383;-267;-164;380;231;850;193;
67;804;810;763;766;764;382;-269;-165;386;232;850;274;
68;803;808;765;766;765;382;-277;-177;386;232;850;273;
69;806;805;763;766;764;383;-278;-185;386;232;851;277;
70;803;806;761;765;764;384;-274;-184;385;232;850;277;
71;804;810;760;765;765;384;-270;-188;383;232;851;277;
72;805;809;763;764;765;384;-269;-182;387;232;850;276;
73;804;804;765;764;764;384;-267;-184;383;232;851;276;
74;804;806;764;764;764;384;-270;-185;383;232;850;276;
75;805;808;765;765;765;385;-276;-180;385;232;851;276;
76;805;808;765;765;765;384;-273;-183;387;232;850;201;
77;805;809;764;765;765;384;-271;-186;386;232;851;201;
78;803;809;766;765;766;384;-270;-182;381;232;851;192;
79;806;806;768;765;765;385;-273;-184;384;232;851;192;
80;804;813;769;767;765;386;-268;-184;392;232;851;272;
81;802;812;764;767;764;386;-275;-192;391;232;851;272;
82;802;814;761;766;764;385;-268;-194;385;232;851;277;
83;805;811;763;765;764;386;-268;-196;389;232;851;277;
84;806;806;766;763;764;386;-272;-192;385;232;851;277;
85;806;806;765;763;765;385;-267;-185;383;232;850;276;
86;804;807;766;763;765;385;-271;-185;382;232;851;277;
87;804;809;765;763;764;383;-272;-184;388;232;850;276;
88;793;813;761;767;765;384;-272;-176;387;232;851;277;
89;804;806;759;764;764;385;-269;-182;388;232;850;202;
90;804;808;763;764;762;383;-275;-183;377;232;851;202;
91;805;809;762;764;762;382;-270;-175;380;232;850;192;
92;807;809;762;763;762;382;-286;-176;374;232;851;193;
93;808;811;764;763;762;380;-290;-172;376;232;850;272;
94;810;813;768;765;761;379;-294;-186;365;232;851;273;
95;807;805;759;765;765;381;-298;-180;364;232;851;276;
96;799;813;763;765;767;383;-302;-182;370;232;851;276;
97;806;810;764;765;766;382;-289;-186;368;232;851;277;
98;805;808;770;765;766;383;-286;-186;371;232;851;277;
99;805;810;773;765;764;383;-292;-193;370;232;851;277;
0;805;807;769;765;763;383;-291;-188;373;232;850;276;
1;805;807;766;765;762;383;-294;-187;367;232;850;276;
2;806;809;761;766;763;384;-300;-198;366;232;850;209;
3;807;805;758;765;764;385;-295;-201;367;232;851;202;
4;806;807;760;764;765;386;-297;-194;369;232;850;190;
5;806;809;768;763;766;388;-296;-184;369;232;850;268;
6;803;809;768;764;765;387;-293;-185;370;232;850;273;
7;804;812;767;765;764;386;-294;-184;364;232;851;273;
8;805;809;764;765;764;384;-291;-184;366;232;850;277;
9;807;806;761;765;764;385;-293;-183;367;232;850;279;
10;807;803;759;764;765;386;-295;-180;369;232;850;279;
11;807;806;764;763;766;387;-287;-180;370;232;851;280;
12;806;810;766;763;766;388;-280;-168;373;232;850;279;
13;805;811;770;763;765;386;-286;-166;375;232;850;280;
14;806;809;770;765;764;385;-283;-158;374;232;851;281;
15;808;809;765;766;764;384;-285;-166;376;232;851;206;
16;808;807;763;765;764;385;-287;-167;376;232;850;206;
17;809;813;762;764;764;386;-290;-169;372;232;850;197;
18;809;811;762;764;765;385;-287;-166;371;232;851;276;
19;807;806;767;764;765;385;-291;-163;375;232;850;277;
20;805;809;766;765;765;384;-286;-160;378;232;850;275;
21;803;806;767;765;765;384;-284;-162;371;232;849;281;
22;804;808;766;765;765;385;-279;-166;377;232;851;283;
23;805;810;764;765;764;385;-278;-165;378;232;850;282;
24;803;809;767;764;763;384;-287;-167;376;232;850;282;
25;804;806;766;764;765;384;-287;-165;372;232;849;281;
26;805;805;766;764;766;385;-287;-163;374;232;850;282;
27;806;805;764;764;765;386;-280;-163;376;232;850;282;
28;804;806;766;764;764;387;-282;-160;378;232;850;208;
29;804;806;766;764;765;385;-277;-153;375;232;850;209;
30;807;810;763;766;765;385;-280;-158;378;232;851;199;
31;808;811;762;766;765;384;-283;-161;381;232;850;278;
32;804;811;765;765;764;384;-279;-165;375;232;850;279;
33;805;808;767;765;764;384;-283;-168;378;232;850;279;
34;807;814;766;766;768;381;-276;-169;376;232;850;283;
35;805;810;764;765;768;384;-268;-175;390;232;850;284;
36;804;807;763;766;767;383;-263;-171;390;232;849;283;
37;805;810;762;765;765;383;-259;-174;397;232;850;283;
38;806;810;773;764;765;383;-261;-179;392;232;850;283;
39;803;810;769;766;765;384;-248;-182;391;232;850;283;
40;802;809;759;766;763;384;-262;-181;398;232;850;281;
41;802;808;759;766;763;383;-260;-190;393;232;850;211;
42;803;808;758;765;762;383;-258;-187;394;232;850;209;
43;804;808;761;764;762;382;-272;-186;390;232;850;200;
44;807;809;768;763;762;382;-274;-183;379;232;849;279;
45;804;811;767;763;762;383;-282;-178;376;232;850;280;
46;806;812;767;763;763;384;-290;-179;375;232;850;284;
47;805;809;767;763;764;384;-284;-176;377;232;850;286;
48;805;804;766;764;765;384;-285;-174;378;232;850;284;
49;807;802;763;765;765;385;-286;-167;372;232;850;283;
50;806;807;762;764;765;386;-292;-168;374;232;850;280;
51;806;807;769;763;764;387;-291;-169;372;232;850;279;
52;804;808;767;764;764;386;-292;-157;374;232;851;280;
53;806;810;766;765;764;385;-291;-163;368;232;850;280;
54;806;809;766;764;764;385;-290;-162;370;232;851;209;
55;806;806;764;764;764;385;-294;-155;369;232;850;209;
56;806;806;764;763;765;386;-289;-153;371;232;850;199;
57;806;808;763;764;766;386;-295;-152;371;232;850;278;
58;806;808;767;765;764;385;-291;-145;375;232;850;277;
59;805;808;766;764;764;384;-289;-148;375;232;850;280;
60;806;806;764;765;765;384;-293;-147;374;232;850;280;
61;807;805;763;765;765;384;-289;-153;368;232;850;281;
62;806;805;764;764;765;385;-294;-140;375;232;850;281;
63;805;807;766;764;766;385;-286;-144;375;232;850;281;
64;805;808;767;764;765;384;-293;-149;370;232;851;281;
65;806;808;766;765;765;384;-288;-143;372;232;851;281;
66;806;806;763;765;765;384;-282;-145;378;232;850;208;
67;805;807;763;765;765;384;-287;-151;383;232;851;208;
68;805;807;764;765;764;384;-280;-153;374;232;850;201;
69;805;806;763;765;764;383;-291;-151;376;232;851;197;
70;805;806;764;765;764;384;-281;-155;374;232;850;276;
71;806;807;764;765;764;384;-289;-153;376;232;850;276;
72;806;809;765;765;764;383;-283;-154;377;232;850;281;
73;807;807;764;765;764;383;-290;-159;376;232;850;281;
74;807;807;766;765;764;382;-282;-159;374;232;850;283;
75;806;805;764;765;765;383;-288;-164;374;232;850;283;
76;806;807;764;765;765;383;-284;-156;371;232;850;283;
77;805;805;766;765;764;383;-285;-166;374;232;850;283;
78;806;804;766;764;764;383;-288;-165;374;232;850;282;
79;805;804;766;765;763;384;-287;-165;371;232;850;210;
80;807;806;763;765;763;384;-287;-164;368;232;851;210;
81;792;811;764;764;765;384;-291;-161;368;232;851;203;
82;806;809;767;765;765;384;-294;-164;372;232;851;200;
83;806;808;764;765;764;383;-292;-166;375;232;850;280;
84;806;807;764;764;765;383;-287;-163;378;232;850;280;
85;806;806;765;764;765;384;-288;-165;375;232;850;284;
86;805;807;766;765;765;384;-286;-165;371;232;850;283;
87;803;809;765;765;766;384;-287;-165;374;232;850;283;
88;807;805;765;765;766;384;-278;-171;377;232;851;283;
89;805;804;766;765;765;384;-280;-166;377;232;850;282;
90;804;805;764;765;764;385;-270;-164;379;232;850;282;
91;804;806;764;764;764;386;-282;-166;380;232;850;281;
92;804;808;767;764;764;386;-281;-163;375;232;850;208;
93;806;809;772;765;763;385;-279;-166;374;232;850;207;
94;809;809;762;765;763;384;-286;-160;372;232;851;201;
95;809;806;765;765;763;384;-292;-158;366;232;850;197;
96;809;806;755;763;766;384;-297;-161;365;232;850;276;
97;807;803;760;763;767;385;-284;-155;372;232;850;277;
98;805;805;764;763;767;386;-284;-157;375;232;851;281;
99;803;808;773;764;765;386;-284;-153;382;232;850;281;
0;801;807;772;765;764;384;-277;-150;378;232;850;281;
1;800;809;772;766;762;384;-283;-157;378;232;850;280;
2;806;807;765;766;763;383;-283;-155;373;232;849;284;
3;807;807;763;765;763;383;-286;-158;375;232;850;280;
4;806;808;761;765;765;384;-288;-166;375;232;850;280;
5;807;807;763;764;765;384;-290;-159;373;232;850;206;
6;806;806;767;765;765;384;-292;-162;368;232;850;205;
7;806;807;765;765;765;384;-280;-160;373;232;850;196;
8;806;805;763;765;765;384;-294;-164;374;232;850;195;
9;806;804;764;764;764;385;-289;-158;372;232;850;275;
10;805;806;765;764;765;385;-286;-153;373;232;850;275;
11;804;807;766;765;764;385;-289;-165;371;232;850;279;
12;805;807;766;765;765;384;-278;-156;377;232;849;278;
13;806;806;764;765;764;384;-285;-156;374;232;850;278;
14;805;807;764;765;764;384;-286;-158;374;232;850;278;
15;806;806;763;765;764;383;-286;-164;374;232;849;278;
16;807;805;764;765;764;384;-293;-169;370;232;850;277;
17;807;808;762;765;763;384;-291;-160;367;232;850;277;
18;809;810;761;765;766;383;-290;-168;374;232;850;202;
19;806;807;767;764;766;384;-287;-166;375;232;849;203;
20;804;808;768;764;765;384;-286;-169;372;232;850;193;
21;804;808;768;765;765;384;-288;-166;375;232;849;193;
22;804;807;766;764;765;384;-285;-164;373;232;849;272;
23;805;806;765;765;765;384;-286;-166;378;232;849;272;
24;806;804;764;765;765;384;-283;-166;378;233;850;276;
25;806;803;765;764;764;385;-284;-166;377;232;849;276;
26;804;806;766;764;764;386;-288;-158;375;232;850;277;
27;804;809;768;765;763;385;-286;-163;375;232;849;276;
28;804;809;767;765;763;384;-287;-158;373;232;850;276;
29;807;806;765;765;763;383;-294;-161;369;232;850;275;
30;808;807;763;765;763;384;-302;-161;369;232;850;275;
31;809;804;760;765;764;384;-294;-161;368;232;849;201;
32;808;805;762;764;764;386;-301;-159;366;232;850;201;
33;806;808;764;764;765;386;-296;-156;364;232;850;191;
34;808;810;765;765;765;385;-298;-156;363;232;850;267;
35;808;807;766;765;765;384;-302;-155;365;232;849;271;
36;809;808;766;765;764;384;-294;-152;371;232;849;271;
37;808;809;766;765;764;384;-293;-161;362;233;850;276;
38;808;806;763;764;765;384;-297;-153;369;232;849;276;
39;806;805;765;764;765;385;-294;-150;369;232;849;276;
40;806;805;765;764;765;385;-299;-153;368;233;849;276;
41;806;805;766;764;765;385;-293;-149;373;232;849;277;
42;806;806;766;764;765;385;-290;-151;366;232;849;276;
43;806;808;763;765;765;385;-297;-147;372;232;849;277;
44;806;805;766;765;765;385;-290;-148;371;232;849;202;
45;806;805;765;765;765;385;-291;-142;374;232;850;202;
46;806;805;765;764;764;386;-297;-151;373;232;849;193;
47;805;807;766;765;764;385;-288;-148;365;232;849;271;
48;806;806;765;765;764;384;-291;-146;376;233;849;281;
49;807;806;765;765;764;384;-295;-142;372;233;849;273;
50;807;806;765;765;764;385;-291;-144;369;233;849;277;
51;806;806;765;765;764;385;-296;-145;373;232;849;278;
52;806;807;765;765;764;385;-295;-139;368;232;849;277;
53;806;807;765;765;764;384;-297;-145;370;232;849;277;
54;807;807;765;765;764;384;-300;-141;368;232;850;277;
55;807;807;764;765;764;384;-298;-146;365;232;849;277;
56;806;806;765;765;764;384;-295;-144;365;232;849;277;
57;807;806;763;765;764;384;-296;-150;372;232;849;203;
58;807;807;764;765;764;384;-296;-144;367;232;850;203;
59;807;807;765;764;765;384;-295;-151;367;232;849;194;
60;807;807;766;765;764;383;-294;-154;367;232;849;273;
61;808;805;764;765;764;384;-299;-142;369;232;849;273;
62;807;805;762;765;765;384;-298;-153;365;232;850;273;
63;807;805;764;764;765;385;-295;-155;372;233;849;277;
64;806;806;766;764;765;385;-295;-143;366;232;849;278;
65;806;806;766;765;765;384;-290;-141;364;232;850;278;
66;806;805;765;765;764;384;-294;-144;364;232;850;279;
67;806;805;764;765;764;384;-294;-153;375;232;850;278;
68;807;806;763;764;765;385;-295;-142;369;232;850;279;
69;806;806;766;764;765;385;-295;-142;367;232;850;279;
70;806;808;766;765;764;385;-294;-143;369;232;849;205;
71;806;807;763;765;765;384;-293;-142;368;232;850;207;
72;808;805;765;765;765;384;-295;-139;370;232;849;197;
73;807;805;763;765;764;385;-291;-144;364;232;850;276;
74;806;805;765;765;764;385;-301;-147;369;233;849;277;
75;801;805;767;765;764;384;-297;-146;366;233;850;281;
76;805;807;764;765;764;384;-299;-140;369;233;849;281;
77;806;807;764;765;764;384;-301;-147;369;232;849;281;
78;807;805;764;765;765;384;-295;-151;363;233;849;281;
79;807;806;764;765;764;385;-296;-150;373;233;850;281;
80;809;807;761;764;765;385;-296;-149;367;232;849;281;
81;807;804;765;765;765;385;-296;-140;364;232;850;281;
82;806;807;766;765;765;385;-293;-145;362;232;850;281;
83;806;806;766;765;764;384;-290;-147;365;232;850;208;
84;806;806;764;765;764;384;-292;-142;372;232;850;208;
85;806;807;765;765;765;385;-290;-149;372;232;849;198;
86;806;806;765;765;765;384;-293;-151;368;233;850;278;
87;806;806;765;765;765;384;-293;-152;373;233;849;278;
88;806;807;765;765;764;384;-286;-151;370;233;849;282;
89;806;807;766;765;764;384;-289;-145;370;233;849;283;
90;806;807;765;765;764;384;-293;-144;363;233;849;282;
91;806;806;764;765;765;384;-290;-152;370;232;849;282;
92;806;806;765;765;765;385;-290;-151;379;232;850;282;
93;806;806;766;765;764;384;-296;-152;370;233;849;283;
94;806;807;765;765;765;384;-293;-149;366;232;850;283;
95;806;806;765;765;765;384;-292;-146;368;232;849;210;
96;806;806;764;765;764;384;-292;-155;375;232;850;211;
97;806;807;765;765;764;384;-289;-152;372;232;849;203;
98;806;807;765;765;764;384;-290;-154;369;232;850;200;
99;806;807;765;765;764;384;-288;-159;370;233;849;280;
0;806;806;764;765;764;384;-287;-152;372;233;849;280;
1;806;806;765;765;764;384;-291;-155;373;233;849;284;
2;806;807;764;765;764;384;-291;-158;370;233;849;291;
3;806;807;765;765;764;384;-291;-158;371;233;849;284;
4;806;807;765;765;764;384;-291;-158;375;232;848;284;
5;807;806;765;765;764;384;-290;-155;371;233;849;285;
6;806;806;764;765;764;384;-298;-156;371;232;849;285;
7;806;807;764;764;764;385;-291;-162;370;233;849;283;
8;806;807;765;765;765;385;-288;-166;370;232;848;212;
9;807;807;765;765;765;385;-292;-156;371;232;849;212;
10;806;807;765;765;764;385;-302;-160;369;232;849;205;
11;806;807;765;765;764;384;-292;-158;371;233;849;201;
12;806;807;765;765;765;385;-290;-153;367;233;848;281;
13;807;806;765;765;765;385;-293;-161;371;233;849;281;
14;806;807;765;764;764;385;-294;-160;369;233;849;285;
15;806;807;765;764;764;384;-295;-150;363;233;848;285;
16;806;807;765;765;765;384;-284;-158;365;233;849;284;
17;806;806;764;765;765;384;-295;-152;366;232;849;285;
18;806;807;765;765;765;384;-291;-159;375;232;849;285;
19;806;806;764;765;765;384;-286;-152;371;232;848;285;
20;806;806;765;765;764;384;-290;-157;372;233;848;285;
21;806;807;765;765;764;384;-290;-154;373;232;848;212;
22;806;808;766;765;764;384;-291;-155;369;232;849;213;
23;806;806;765;765;765;384;-293;-156;371;232;848;206;
24;806;806;764;765;765;384;-294;-159;371;233;848;201;
25;807;807;765;765;765;384;-291;-158;371;233;848;281;
26;806;807;765;765;764;385;-287;-155;370;233;849;281;
27;807;806;764;765;764;384;-290;-154;376;233;848;284;
28;806;807;766;765;764;384;-291;-157;369;233;849;285;
29;806;807;765;765;765;384;-288;-154;371;233;849;284;
30;806;807;765;765;764;384;-290;-156;369;233;849;284;
31;806;807;765;765;764;384;-287;-152;368;232;848;284;
32;806;807;765;764;765;385;-295;-156;369;233;848;284;
33;806;807;765;765;764;384;-288;-151;368;232;849;284;
34;806;807;765;765;765;384;-290;-155;369;233;849;211;
35;806;806;764;764;764;384;-295;-152;370;233;848;211;
36;806;807;765;765;765;384;-291;-156;375;232;848;202;
37;806;807;765;765;764;384;-289;-156;369;233;849;200;
38;806;807;765;765;764;384;-291;-151;369;233;848;280;
39;806;807;765;765;764;384;-295;-155;373;233;847;280;
40;806;807;765;765;765;384;-295;-153;373;233;848;283;
41;807;806;764;765;765;384;-297;-151;372;233;849;283;
42;806;807;765;765;764;385;-292;-153;370;233;848;282;
43;806;807;765;765;764;384;-292;-152;372;233;848;283;
44;806;807;765;765;765;384;-291;-156;361;233;848;282;
45;806;806;765;765;765;384;-293;-149;369;233;847;282;
46;806;807;765;765;765;385;-291;-160;364;233;848;281;
47;806;807;766;764;764;385;-294;-158;369;233;848;208;
48;806;807;766;765;765;385;-298;-153;368;233;849;208;
49;806;806;765;765;765;384;-297;-152;369;233;849;198;
50;806;807;765;765;765;384;-296;-156;369;233;849;197;
51;806;806;765;765;764;384;-295;-155;364;233;849;277;
52;806;807;766;764;764;384;-296;-157;368;233;849;277;
53;807;806;765;765;765;385;-293;-155;372;233;848;280;
54;807;806;765;765;765;385;-288;-150;366;233;849;280;
55;807;806;765;764;765;384;-294;-150;361;233;848;280;
56;806;807;765;765;765;384;-296;-152;366;233;849;281;
57;807;806;765;764;764;384;-299;-155;370;232;848;280;
58;806;806;765;764;764;385;-292;-143;369;233;849;280;
59;806;807;766;764;765;384;-300;-147;369;233;848;280;
60;806;806;765;764;765;384;-303;-145;372;233;849;206;
61;806;806;763;764;764;384;-293;-149;364;233;848;207;
62;806;806;763;764;764;384;-295;-148;367;233;849;196;
63;807;806;763;764;764;384;-298;-147;370;233;849;270;
64;807;806;761;764;764;384;-296;-145;364;233;849;276;
65;806;807;759;764;764;384;-294;-137;368;233;849;275;
66;807;808;754;764;765;384;-299;-140;365;233;849;279;
67;808;808;752;763;764;385;-303;-140;371;233;849;279;
68;807;808;748;763;764;385;-292;-137;369;233;849;279;
69;806;809;739;764;764;385;-302;-137;363;233;849;279;
70;806;810;734;764;765;384;-292;-129;364;233;848;279;
71;806;810;736;765;765;382;-298;-126;360;233;849;279;
72;808;808;733;766;764;380;-296;-131;365;233;848;279;
73;811;805;730;768;765;380;-297;-144;366;233;848;205;
74;809;809;734;769;764;382;-295;-149;362;233;848;206;
75;809;812;732;770;763;382;-303;-169;364;233;849;196;
76;808;815;738;770;762;383;-305;-184;366;233;848;274;
77;807;813;746;770;763;383;-304;-200;355;233;849;276;
78;809;807;750;772;765;383;-314;-208;351;233;848;276;
79;810;806;756;772;765;383;-315;-236;359;233;849;280;
80;807;812;769;771;765;384;-316;-239;358;233;849;280;
81;808;812;777;770;765;384;-314;-265;348;233;849;280;
82;807;808;784;767;765;385;-316;-269;353;233;849;280;
83;805;802;792;767;765;386;-319;-278;361;233;849;280;
84;804;803;793;768;764;386;-318;-283;360;233;849;280;
85;804;808;798;768;764;385;-318;-290;359;233;849;279;
86;803;809;801;767;764;384;-324;-291;354;233;849;204;
87;805;807;802;766;765;384;-323;-297;354;233;848;207;
88;807;803;803;764;764;385;-325;-300;344;233;849;197;
89;805;803;804;765;764;385;-326;-295;346;233;848;276;
90;805;805;802;766;764;384;-335;-301;352;233;849;276;
91;806;810;801;766;764;383;-331;-306;347;233;848;276;
92;805;812;798;766;765;382;-330;-314;338;233;849;282;
93;809;809;794;765;765;383;-330;-315;348;233;848;283;
94;810;810;794;765;765;383;-328;-317;344;233;849;281;
95;809;813;790;765;764;383;-327;-313;348;233;848;280;
96;808;814;788;764;764;383;-326;-323;346;233;849;280;
97;807;814;788;764;764;382;-327;-320;343;233;849;280;
98;808;814;782;765;764;383;-323;-317;342;233;849;280;
99;812;814;781;765;764;383;-325;-320;339;233;849;207;
0;807;814;781;764;764;383;-325;-321;337;233;848;207;
1;804;814;770;764;765;385;-320;-315;340;233;848;197;
2;808;813;770;763;767;388;-312;-316;346;233;848;276;
3;815;815;780;761;765;389;-312;-306;349;233;849;278;
4;810;818;788;760;763;386;-317;-299;348;233;847;280;
5;800;821;773;763;764;384;-319;-283;352;233;848;280;
6;807;815;760;763;765;386;-316;-278;345;233;848;280;
7;815;815;763;761;764;386;-319;-271;352;233;848;280;
8;810;816;765;759;763;385;-311;-262;354;233;846;279;
9;806;822;755;760;763;385;-315;-235;351;233;848;280;
10;809;822;752;759;764;383;-319;-232;344;233;848;279;
11;812;815;742;760;764;383;-317;-219;343;233;848;278;
12;810;814;728;761;765;384;-320;-211;347;233;847;205;
13;810;815;730;760;764;386;-318;-200;348;233;848;205;
14;811;815;741;759;764;386;-324;-189;352;233;848;195;
15;810;815;748;761;764;386;-317;-172;349;233;848;274;
16;810;811;743;763;765;385;-321;-163;344;233;848;273;
17;810;805;740;763;766;385;-314;-160;346;233;848;278;
18;811;805;748;762;765;386;-324;-152;349;233;848;278;
19;810;806;760;762;765;386;-319;-139;349;233;848;278;
20;808;807;761;764;765;385;-313;-138;352;233;848;277;
21;808;806;761;764;765;385;-312;-139;351;233;848;278;
22;808;806;761;765;765;384;-311;-137;350;233;848;278;
23;809;804;760;766;765;384;-316;-144;350;233;847;277;
24;809;805;760;766;765;385;-320;-150;357;233;848;205;
25;809;807;767;765;765;385;-312;-147;352;233;847;205;
26;808;808;768;765;765;385;-317;-148;356;233;848;199;
27;808;806;766;765;765;384;-309;-145;353;233;848;196;
28;807;805;766;765;765;384;-309;-150;359;233;848;275;
29;807;806;766;766;765;384;-309;-153;365;233;848;276;
30;808;805;766;765;765;384;-311;-153;357;233;848;280;
31;807;806;767;765;765;384;-309;-155;359;233;848;278;
32;806;806;766;765;765;384;-304;-155;361;233;848;280;
33;807;805;764;765;765;384;-300;-152;360;233;848;280;
34;807;805;765;765;765;384;-305;-164;362;233;848;280;
35;806;806;765;765;765;384;-302;-158;365;233;848;280;
36;807;805;766;765;765;384;-302;-158;364;233;847;279;
37;806;806;765;764;765;384;-291;-159;359;233;848;206;
38;806;806;766;765;765;384;-305;-156;363;233;847;206;
39;806;806;765;765;765;385;-298;-158;366;233;848;198;
40;806;806;765;765;764;384;-301;-160;363;233;847;197;
41;807;806;766;765;764;384;-295;-156;361;233;848;276;
42;807;806;763;765;764;384;-296;-164;365;233;847;276;
43;807;805;764;765;765;385;-293;-159;365;233;848;280;
44;807;806;765;765;764;385;-308;-154;363;233;847;280;
45;807;807;766;764;764;384;-302;-150;366;233;846;280;
46;807;806;766;765;764;385;-302;-159;359;233;847;280;
47;807;807;765;764;764;385;-299;-156;362;233;847;281;
48;807;806;765;765;765;385;-301;-159;365;233;848;281;
49;807;806;764;764;765;385;-299;-152;367;233;848;280;
50;807;807;765;764;764;385;-302;-159;370;233;848;207;
51;807;806;766;765;765;384;-305;-150;366;233;848;208;
52;807;806;764;765;765;384;-301;-155;363;233;848;202;
53;807;807;765;765;765;385;-300;-151;363;233;847;198;
54;807;807;765;765;765;385;-300;-163;364;233;848;277;
55;807;806;764;765;765;384;-299;-156;368;233;847;278;
56;807;806;764;765;764;384;-295;-155;365;233;848;281;
57;806;806;765;765;765;384;-304;-151;364;233;847;281;
58;807;806;765;765;765;384;-303;-155;369;233;848;282;
59;807;805;764;765;765;384;-302;-155;365;233;847;282;
60;807;806;764;765;765;384;-303;-155;362;233;848;282;
61;807;806;764;765;765;385;-304;-156;365;233;847;282;
62;807;806;765;765;764;384;-306;-154;371;233;848;282;
63;807;806;764;765;764;384;-305;-151;359;233;848;209;
64;807;807;765;765;765;384;-298;-152;358;233;848;209;
65;807;806;766;765;765;384;-307;-156;366;233;848;198;
66;807;806;765;765;764;384;-297;-155;364;233;848;199;
67;807;807;765;765;765;384;-295;-154;369;233;848;278;
68;806;806;765;765;764;384;-295;-159;365;233;848;278;
69;807;806;765;765;765;384;-301;-156;367;233;848;282;
70;807;806;765;765;764;384;-302;-155;367;233;847;282;
71;807;806;765;765;764;384;-298;-158;369;233;848;282;
72;806;807;765;765;764;384;-312;-155;364;233;847;282;
73;807;806;764;765;764;384;-304;-153;367;233;848;282;
74;807;806;764;765;764;384;-301;-160;369;233;847;281;
75;807;806;765;764;765;384;-301;-161;365;233;848;282;
76;807;806;765;765;764;384;-300;-158;369;233;847;209;
77;807;806;766;765;765;384;-301;-159;367;233;848;209;
78;807;806;764;765;765;384;-299;-161;367;233;848;199;
79;807;807;764;765;764;384;-303;-160;361;233;848;199;
80;807;807;765;765;765;384;-300;-161;364;233;847;278;
81;807;806;765;765;765;384;-294;-154;368;233;848;278;
82;807;806;766;765;765;384;-301;-167;365;233;848;282;
83;806;807;765;765;765;384;-300;-163;362;233;848;282;
84;807;807;764;765;764;384;-300;-158;364;233;848;282;
85;807;806;765;765;764;384;-298;-160;366;233;848;282;
86;807;806;765;765;764;384;-302;-164;364;233;848;281;
87;807;805;764;765;765;384;-305;-160;369;233;847;281;
88;807;806;764;765;765;384;-301;-157;364;233;848;281;
89;807;808;766;765;765;384;-295;-167;362;233;847;208;
90;807;808;766;766;765;384;-300;-163;365;233;848;209;
91;807;807;765;765;765;384;-299;-162;365;233;847;198;
92;808;807;765;766;765;384;-296;-168;365;233;848;272;
93;809;806;765;766;764;384;-304;-169;362;233;847;278;
94;809;807;763;766;764;384;-296;-176;364;233;848;277;
95;809;806;763;765;764;385;-301;-178;357;233;847;281;
96;808;808;764;765;765;386;-303;-176;371;233;848;281;
97;807;810;766;765;765;386;-301;-181;368;233;848;282;
98;808;809;768;765;765;386;-301;-173;365;233;848;282;
99;807;807;765;765;764;385;-301;-170;362;233;848;281;
0;807;806;764;765;765;386;-301;-174;370;233;847;281;
1;806;807;764;765;764;386;-303;-176;366;233;847;281;
2;806;809;766;765;764;386;-302;-167;364;233;847;207;
3;806;809;765;765;764;385;-302;-178;363;233;848;208;
4;806;808;766;765;765;386;-305;-170;361;233;847;197;
5;807;806;766;765;765;387;-303;-171;365;233;847;276;
6;805;808;764;766;765;386;-308;-164;362;233;847;276;
7;806;810;765;766;765;386;-299;-172;370;233;848;277;
8;807;809;765;765;765;385;-302;-177;369;234;847;280;
9;807;807;766;765;765;385;-296;-172;366;233;847;280;
10;806;807;763;765;765;385;-289;-169;370;233;847;280;
11;805;809;764;766;765;385;-298;-174;367;233;848;280;
12;806;810;766;766;765;385;-293;-176;372;233;847;280;
13;806;810;765;765;764;384;-291;-183;372;233;847;280;
14;806;810;766;765;764;384;-294;-181;371;233;848;279;
15;806;809;764;765;765;384;-292;-185;363;233;847;206;
16;805;809;764;765;765;385;-295;-183;365;233;848;207;
17;805;811;764;765;765;384;-300;-182;371;233;847;196;
18;806;810;765;765;765;384;-295;-185;370;233;848;275;
19;805;809;765;764;765;384;-301;-184;371;233;847;275;
20;806;809;766;765;764;384;-292;-184;365;233;848;275;
21;805;809;764;765;765;384;-300;-180;369;234;846;279;
22;806;810;764;764;764;384;-293;-180;368;233;847;279;
23;806;810;764;764;765;384;-297;-181;366;233;847;279;
24;806;809;764;764;765;384;-298;-178;369;233;847;279;
25;806;810;765;764;764;384;-303;-177;371;233;846;279;
26;807;809;765;765;764;384;-301;-180;369;233;847;279;
27;807;810;764;765;765;384;-297;-185;371;233;847;278;
28;807;809;766;764;765;384;-295;-180;369;233;847;205;
29;806;810;766;764;765;384;-298;-178;372;233;846;205;
30;807;810;767;764;765;384;-294;-185;371;233;848;196;
31;806;811;766;765;765;384;-299;-178;371;233;847;275;
32;805;813;764;765;765;384;-296;-185;372;233;847;275;
33;806;810;767;764;765;383;-293;-182;370;234;847;278;
34;806;808;767;763;765;383;-289;-177;368;234;847;278;
35;806;808;768;764;764;383;-288;-170;374;233;847;278;
36;805;808;765;765;764;383;-291;-171;371;233;847;279;
37;806;808;764;765;765;383;-297;-177;374;233;847;278;
38;806;807;764;764;764;383;-299;-174;373;233;847;278;
39;806;806;765;763;764;383;-294;-178;370;233;847;278;
40;806;804;766;764;765;384;-296;-168;368;233;847;277;
41;806;805;764;765;765;384;-298;-167;366;233;847;204;
42;807;806;764;765;765;384;-296;-165;370;233;847;204;
43;806;806;764;764;765;385;-294;-166;364;233;847;194;
44;805;806;765;764;764;384;-293;-165;371;233;846;273;
45;806;805;766;765;765;384;-296;-160;368;233;846;273;
46;807;804;762;766;765;384;-298;-161;370;234;846;277;
47;806;805;762;765;764;385;-296;-165;374;234;847;277;
48;807;808;765;765;764;384;-289;-165;375;233;847;277;
49;806;807;765;765;765;384;-296;-168;371;233;847;277;
50;806;807;764;765;764;385;-297;-165;369;233;847;278;
51;807;807;763;765;765;385;-296;-163;376;233;847;277;
52;806;806;763;765;764;385;-300;-161;374;233;847;277;
53;807;808;763;765;764;384;-298;-168;371;233;847;203;
54;806;807;764;766;765;385;-297;-172;369;233;847;203;
55;806;807;761;765;765;385;-294;-168;367;233;847;197;
56;806;807;763;765;765;385;-295;-169;369;233;847;194;
57;805;807;763;766;764;384;-295;-167;374;233;847;273;
58;806;807;763;765;764;384;-292;-168;368;233;847;273;
59;806;808;765;765;765;384;-297;-176;376;234;847;277;
60;805;809;764;766;764;384;-300;-177;374;234;847;277;
61;806;809;764;765;765;384;-291;-184;374;233;847;277;
62;806;810;766;765;764;384;-297;-182;373;233;847;277;
63;806;810;766;765;764;384;-300;-180;372;233;847;278;
64;806;810;765;766;764;384;-289;-188;371;233;847;278;
65;806;810;766;765;764;384;-300;-184;368;233;847;278;
66;807;810;765;765;764;383;-297;-186;366;233;847;204;
67;807;809;764;765;764;383;-293;-187;368;234;847;204;
68;808;808;765;765;764;384;-297;-189;363;233;847;198;
69;808;810;766;765;764;384;-291;-196;364;233;847;195;
70;808;810;766;765;764;383;-300;-195;363;233;847;274;
71;808;810;766;765;764;383;-309;-192;361;234;847;274;
72;809;808;765;765;764;383;-305;-196;362;234;847;278;
73;810;807;767;764;764;383;-308;-196;356;233;848;278;
74;808;808;769;764;764;383;-308;-197;356;233;847;278;
75;808;808;773;765;764;383;-309;-196;359;233;847;278;
76;808;808;774;766;764;383;-315;-199;356;233;847;277;
77;809;806;774;765;764;384;-313;-196;351;233;847;278;
78;807;806;778;764;764;384;-319;-199;354;233;847;278;
79;804;805;783;765;764;384;-314;-194;352;233;847;204;
80;806;805;786;766;765;384;-315;-197;354;233;847;204;
81;807;804;790;765;764;384;-316;-203;355;233;847;199;
82;806;804;791;764;764;384;-317;-207;355;233;847;195;
83;804;807;798;764;765;384;-319;-201;354;234;847;273;
84;802;803;799;763;766;384;-311;-200;346;234;847;275;
85;808;801;803;763;766;384;-305;-198;356;233;848;279;
86;807;805;800;762;764;383;-307;-189;351;234;847;280;
87;805;804;803;763;764;383;-306;-184;357;233;847;280;
88;805;803;790;764;765;382;-306;-182;351;233;847;282;
89;807;800;779;763;767;382;-306;-190;360;233;847;281;
90;809;797;754;764;766;382;-295;-183;363;233;847;279;
91;809;802;726;762;765;383;-291;-199;370;233;847;276;
92;808;810;727;761;766;384;-284;-171;371;233;847;202;
93;808;810;721;760;768;384;-279;-175;376;234;847;207;
94;810;812;720;760;768;382;-273;-152;379;233;847;195;
95;808;810;723;761;769;382;-268;-148;387;233;847;195;
96;802;811;727;762;769;383;-263;-135;393;233;847;279;
97;800;810;728;763;766;384;-247;-135;398;233;847;276;
98;800;806;739;764;763;384;-245;-133;397;234;847;278;
99;801;801;745;765;763;386;-251;-133;394;234;847;279;
0;800;803;743;765;764;386;-249;-128;397;233;847;286;
1;802;800;751;764;763;385;-253;-123;398;234;847;274;
2;803;799;759;764;762;385;-261;-125;390;233;847;281;
3;803;801;759;765;762;385;-263;-114;388;234;845;272;
4;804;800;750;766;763;385;-270;-120;379;233;847;281;
5;807;800;744;765;763;385;-272;-127;375;234;847;207;
6;807;805;734;764;762;385;-278;-123;380;233;846;207;
7;806;809;729;764;763;385;-282;-122;370;233;846;199;
8;808;808;729;766;763;384;-289;-123;364;233;846;200;
9;807;806;735;766;764;382;-292;-121;358;234;847;279;
10;810;799;737;767;764;382;-294;-126;370;234;847;282;
11;811;798;748;766;763;382;-298;-139;363;234;846;288;
12;811;797;759;766;763;382;-301;-143;354;234;847;289;
13;809;796;766;769;763;382;-308;-148;355;234;847;291;
14;807;795;765;769;764;383;-308;-156;353;234;846;285;
15;807;794;773;768;763;383;-316;-174;345;234;846;285;
16;808;794;785;766;762;383;-317;-182;352;233;847;284;
17;808;799;801;766;762;383;-327;-184;342;234;847;283;
18;807;801;801;768;763;383;-333;-186;340;233;847;212;
19;806;803;799;768;764;384;-329;-192;331;234;846;211;
20;806;806;798;768;764;385;-332;-205;335;233;847;200;
21;806;807;797;766;764;386;-343;-203;327;234;846;274;
22;806;810;792;765;764;385;-340;-209;329;234;847;280;
23;808;811;785;765;764;383;-331;-210;321;234;846;279;
24;812;811;775;765;765;383;-335;-211;325;234;847;284;
25;811;810;771;765;765;384;-334;-210;328;234;846;283;
26;810;812;768;765;765;384;-334;-212;329;233;847;284;
27;811;811;767;765;766;384;-331;-212;330;234;845;283;
28;812;810;764;765;766;384;-330;-208;337;234;847;284;
29;813;809;765;765;765;384;-330;-212;334;234;846;284;
30;811;810;768;765;765;384;-329;-212;336;234;847;284;
31;811;810;768;766;765;384;-332;-208;332;234;846;211;
32;811;810;767;766;765;384;-332;-215;334;234;847;211;
33;811;809;763;766;764;383;-331;-217;336;233;847;201;
34;811;809;764;765;764;384;-332;-222;333;234;846;278;
35;810;810;766;765;765;384;-326;-222;335;234;846;279;
36;810;809;766;765;765;384;-324;-216;332;234;847;280;
37;810;810;765;765;765;384;-332;-221;337;234;847;283;
38;810;809;766;765;765;384;-327;-214;335;234;846;284;
39;810;810;766;765;765;385;-322;-215;336;234;846;284;
40;810;808;765;765;765;384;-322;-217;340;234;846;284;
41;810;809;765;764;765;385;-323;-214;341;234;847;284;
42;809;810;766;765;765;384;-319;-216;343;234;846;282;
43;809;809;766;765;765;384;-319;-212;335;234;846;283;
44;809;809;766;765;765;384;-322;-216;339;234;846;211;
45;810;808;763;765;765;385;-318;-215;348;234;847;210;
46;811;809;765;764;765;385;-320;-213;342;234;845;199;
47;810;809;767;764;765;385;-320;-212;342;233;846;278;
48;809;809;766;765;765;384;-320;-213;340;234;845;279;
49;809;809;765;765;765;384;-317;-210;343;234;846;278;
50;809;808;764;765;765;384;-315;-209;341;234;846;282;
51;809;808;763;764;765;384;-316;-210;346;234;846;283;
52;809;809;765;764;765;385;-319;-209;344;234;847;282;
53;809;809;766;764;765;384;-316;-208;357;234;846;282;
54;809;808;765;765;765;384;-316;-207;345;234;847;282;
55;809;808;765;764;765;384;-312;-201;354;234;846;282;
56;809;809;765;764;765;384;-311;-201;349;234;847;282;
57;809;808;765;765;765;385;-314;-208;351;234;846;209;
58;808;808;765;765;765;384;-309;-208;348;233;847;209;
59;809;808;766;764;765;384;-317;-202;352;234;846;198;
60;809;808;765;764;765;385;-313;-200;351;234;847;278;
61;808;808;765;765;765;385;-305;-201;354;234;846;277;
62;808;809;766;765;765;385;-312;-201;357;234;847;281;
63;809;808;766;765;765;384;-311;-208;349;234;846;281;
64;809;807;763;765;765;384;-309;-203;350;234;846;281;
65;809;808;763;765;764;385;-306;-205;354;234;846;281;
66;809;808;764;765;765;385;-309;-205;350;234;847;280;
67;808;808;764;765;765;385;-310;-197;350;234;847;280;
68;809;807;766;765;765;385;-315;-202;353;234;847;280;
69;808;809;766;765;765;385;-312;-199;348;234;847;279;
70;808;808;763;765;765;385;-314;-202;346;234;847;207;
71;809;808;765;765;765;385;-306;-202;348;234;846;206;
72;808;808;766;765;765;385;-309;-199;352;234;846;196;
73;809;808;765;765;765;385;-306;-195;353;234;846;275;
74;809;808;765;764;765;385;-305;-198;355;234;846;275;
75;809;808;767;765;765;385;-319;-201;349;234;847;280;
76;809;808;766;765;765;385;-308;-201;353;234;846;279;
77;808;808;764;765;765;385;-306;-200;353;234;847;279;
78;808;808;765;765;765;385;-305;-201;355;234;846;279;
79;809;808;767;765;765;384;-317;-198;355;234;847;279;
80;808;809;766;765;765;384;-305;-202;359;234;846;279;
81;808;808;764;765;765;385;-305;-199;356;234;847;279;
82;808;808;765;765;765;385;-306;-196;354;234;846;205;
83;808;808;766;765;765;385;-315;-198;356;234;847;204;
84;808;809;766;765;764;385;-309;-199;357;234;847;199;
85;808;809;765;765;764;385;-310;-197;349;233;847;195;
86;809;808;764;765;764;385;-309;-202;352;234;847;274;
87;808;808;763;765;764;385;-306;-196;348;234;847;274;
88;808;808;764;765;764;384;-315;-197;347;234;847;278;
89;808;808;765;766;764;384;-310;-195;345;234;846;278;
90;809;808;764;765;764;384;-314;-202;344;234;847;278;
91;809;807;764;765;764;384;-318;-204;345;234;846;277;
92;809;809;766;765;764;384;-315;-196;354;234;846;277;
93;809;808;765;765;764;384;-316;-203;350;234;846;277;
94;810;809;766;765;764;385;-316;-198;350;234;847;276;
95;809;809;766;765;764;385;-319;-202;348;234;846;202;
96;810;808;765;765;764;385;-321;-198;346;234;847;202;
97;810;808;764;765;763;385;-320;-195;342;234;846;196;
98;810;808;764;765;762;384;-324;-197;337;234;847;193;
99;811;807;765;765;761;385;-328;-199;336;234;846;272;
0;812;809;766;765;761;386;-334;-193;331;234;846;272;
1;812;809;763;765;760;385;-344;-188;317;234;846;276;
2;817;807;762;765;758;386;-361;-193;300;234;846;276;
3;818;807;767;764;756;387;-371;-188;303;234;847;276;
4;820;808;767;763;753;387;-392;-183;256;234;846;275;
5;824;805;770;762;748;388;-405;-174;237;234;847;275;
6;824;802;770;762;741;389;-430;-166;211;234;846;275;
7;827;803;778;762;741;390;-463;-141;128;234;846;274;
8;831;805;778;763;745;388;-482;-143;86;234;845;200;
9;840;806;775;763;749;386;-492;-134;11;234;846;199;
10;840;809;779;765;750;384;-500;-126;-22;233;846;195;
11;848;807;787;766;750;381;-505;-128;-80;234;846;192;
12;844;810;798;765;744;380;-499;-132;-103;234;845;269;
13;844;813;802;765;735;376;-481;-139;-190;234;846;269;
14;860;811;794;765;734;374;-461;-150;-242;234;846;273;
15;857;806;799;766;741;375;-406;-164;-327;234;846;272;
16;853;799;812;766;751;382;-386;-169;-362;234;846;274;
17;843;801;814;765;750;388;-354;-172;-403;234;846;274;
18;846;811;819;764;747;389;-336;-172;-416;234;846;274;
19;846;811;826;764;748;386;-291;-167;-453;234;846;273;
20;848;811;826;764;750;382;-262;-170;-468;234;846;274;
21;856;810;833;765;751;380;-210;-176;-487;234;846;200;
22;847;803;831;765;751;382;-187;-181;-504;234;846;200;
23;836;810;831;765;754;384;-161;-184;-510;234;845;190;
24;836;813;832;764;756;382;-128;-184;-520;234;845;192;
25;842;812;840;764;758;380;-113;-191;-526;234;846;271;
26;842;808;840;763;757;380;-88;-200;-530;234;846;271;
27;839;808;842;764;758;379;-68;-203;-525;234;845;275;
28;834;810;840;764;758;382;-50;-211;-529;234;846;276;
29;831;811;833;764;757;382;-37;-212;-531;234;845;276;
30;829;811;835;763;755;381;-8;-218;-534;234;846;276;
31;832;811;846;762;749;379;11;-230;-530;234;845;275;
32;824;806;837;762;754;380;68;-247;-523;234;845;275;
33;833;809;847;763;756;380;89;-251;-519;234;846;276;
34;830;818;856;764;751;383;125;-258;-505;234;846;202;
35;821;809;846;765;749;383;156;-264;-501;234;846;202;
36;818;809;848;765;751;383;210;-265;-480;234;846;193;
37;821;814;861;765;752;384;231;-273;-472;234;846;193;
38;816;810;863;766;753;386;276;-272;-446;234;846;273;
39;802;814;860;767;757;384;285;-269;-439;234;846;273;
40;807;812;849;767;760;382;288;-268;-430;234;845;278;
41;797;820;834;766;761;381;316;-258;-422;234;846;278;
42;815;811;858;764;763;382;318;-259;-416;234;845;280;
43;807;808;859;766;765;382;321;-252;-421;234;845;279;
44;811;808;860;768;764;384;320;-246;-417;234;845;281;
45;805;808;850;768;763;386;319;-236;-410;234;845;279;
46;808;811;851;766;763;387;331;-230;-415;234;845;280;
47;804;804;856;765;763;391;331;-235;-422;234;844;208;
48;818;807;856;768;763;385;332;-235;-407;234;845;207;
49;802;809;853;766;763;387;342;-231;-402;234;846;197;
50;804;809;855;765;764;385;341;-229;-397;234;846;271;
51;807;808;855;765;763;383;348;-229;-403;234;846;276;
52;803;804;853;765;762;384;355;-229;-395;234;846;276;
53;802;806;854;765;764;385;359;-231;-395;234;846;279;
54;803;811;855;765;764;385;360;-225;-388;234;846;280;
55;800;809;850;765;764;384;352;-229;-382;234;846;281;
56;801;806;854;765;765;384;360;-227;-384;234;846;281;
57;803;807;856;766;764;385;356;-226;-392;234;845;280;
58;799;807;848;766;763;386;363;-230;-386;234;846;280;
59;796;808;846;765;765;385;364;-226;-379;234;845;279;
60;801;808;854;764;766;383;359;-226;-382;234;846;206;
61;801;804;856;765;766;384;363;-230;-391;234;845;207;
62;803;804;858;765;765;386;349;-233;-392;234;846;197;
63;802;809;854;766;765;387;355;-230;-397;234;845;275;
64;801;808;848;765;764;385;353;-229;-389;234;846;276;
65;802;808;851;764;766;384;362;-230;-394;234;845;276;
66;803;807;856;765;765;384;351;-227;-399;234;846;280;
67;802;804;854;765;765;385;348;-231;-397;234;846;273;
68;802;804;853;765;765;387;352;-228;-390;234;846;282;
69;804;811;853;766;765;387;349;-228;-393;234;846;280;
70;802;811;850;766;764;385;347;-226;-405;234;846;280;
71;802;806;850;764;765;384;348;-229;-398;234;846;281;
72;803;805;855;764;765;384;344;-229;-398;234;846;280;
73;805;808;857;765;765;385;345;-225;-398;234;846;206;
74;803;807;852;765;764;385;348;-229;-399;234;845;208;
75;804;808;854;765;765;384;351;-228;-399;234;846;197;
76;804;807;854;765;764;384;348;-227;-395;234;845;276;
77;803;805;850;766;765;384;352;-229;-395;234;846;277;
78;803;804;855;764;765;384;347;-227;-398;234;846;278;
79;804;809;854;764;765;384;348;-227;-399;234;846;281;
80;804;809;854;765;765;384;345;-230;-399;234;845;281;
81;803;807;854;765;765;384;346;-229;-403;234;846;281;
82;804;808;853;765;765;384;348;-224;-397;234;846;280;
83;803;806;853;765;765;384;351;-227;-397;234;846;281;
84;804;807;856;764;765;384;348;-225;-398;234;846;281;
85;804;806;854;765;765;385;345;-224;-401;234;846;280;
86;803;807;854;765;765;384;342;-221;-398;234;846;207;
87;803;806;852;765;765;384;339;-217;-406;234;846;207;
88;803;807;853;765;765;384;341;-219;-404;234;846;197;
89;803;807;853;765;765;384;340;-221;-403;234;846;277;
90;804;806;854;765;765;385;343;-225;-400;234;846;277;
91;804;806;855;765;764;385;337;-221;-405;234;846;281;
92;803;806;853;765;765;385;342;-220;-401;234;846;281;
93;803;806;853;764;765;384;346;-222;-404;234;845;281;
94;804;807;855;765;765;384;342;-223;-407;234;846;281;
95;804;807;854;765;765;384;338;-223;-412;234;845;282;
96;804;806;854;765;765;384;344;-220;-404;234;846;281;
97;803;806;853;765;765;385;333;-218;-401;234;845;280;
98;804;807;854;765;765;385;347;-218;-408;234;846;279;
99;804;806;855;765;765;385;340;-215;-406;234;846;207;
0;804;806;854;765;764;384;336;-222;-410;234;846;207;
1;804;806;853;765;764;385;336;-221;-402;234;845;197;
2;804;806;853;764;765;385;342;-217;-407;234;845;276;
3;804;807;854;764;765;384;338;-217;-405;234;846;277;
4;804;805;854;765;764;384;339;-217;-408;234;845;280;
5;804;806;853;765;765;384;340;-216;-403;234;845;280;
6;804;806;853;765;765;384;338;-220;-411;234;846;280;
7;804;806;853;765;765;384;335;-222;-407;234;846;280;
8;804;806;853;765;764;384;341;-224;-410;234;845;280;
9;804;807;853;765;764;385;341;-220;-410;234;845;280;
10;804;806;853;765;765;385;345;-218;-412;234;845;280;
11;804;806;854;765;765;384;335;-217;-405;234;846;207;
12;804;805;854;764;765;384;340;-218;-402;234;845;207;
13;804;806;854;765;765;384;342;-219;-406;234;845;200;
14;804;806;854;765;765;384;338;-219;-405;234;845;197;
15;804;806;853;765;765;384;336;-218;-399;234;846;276;
16;804;806;852;765;765;384;342;-215;-404;234;845;276;
17;804;806;853;765;765;384;338;-221;-405;234;845;280;
18;805;807;855;765;765;384;334;-217;-404;234;846;280;
19;804;806;854;765;765;384;343;-220;-411;234;846;280;
20;804;806;854;765;764;384;338;-218;-407;234;845;280;
21;804;807;854;765;764;384;338;-218;-404;234;845;280;
22;804;806;854;765;765;384;335;-217;-402;234;846;280;
23;804;806;853;765;765;384;335;-218;-409;234;845;280;
24;804;807;853;765;765;384;339;-215;-401;234;845;206;
25;804;806;853;765;765;384;342;-215;-407;234;845;206;
26;805;806;853;765;765;384;340;-218;-407;234;846;200;
27;804;806;852;765;765;384;333;-215;-406;234;845;196;
28;804;806;853;765;765;384;337;-213;-410;234;846;275;
29;804;806;853;765;765;383;340;-215;-410;234;843;275;
30;800;804;858;764;765;384;341;-216;-405;234;846;279;
31;802;807;854;766;765;384;337;-211;-407;234;845;279;
32;804;805;863;766;765;384;340;-213;-408;234;845;279;
33;803;804;868;767;765;385;335;-209;-411;234;844;279;
34;802;806;877;766;765;385;331;-201;-410;234;845;280;
35;801;806;891;764;764;385;334;-198;-411;234;845;279;
36;802;809;907;764;764;385;340;-206;-409;234;845;279;
37;802;810;912;763;763;386;341;-207;-408;234;845;206;
38;792;809;911;762;764;386;342;-211;-407;234;845;206;
39;804;807;904;760;765;386;347;-221;-405;234;845;200;
40;804;806;895;758;765;387;347;-244;-402;234;845;196;
41;805;804;879;758;765;388;348;-247;-399;234;844;274;
42;803;805;859;758;764;389;349;-274;-408;234;845;275;
43;805;803;848;760;763;389;357;-298;-394;234;845;279;
44;807;801;837;761;762;388;359;-306;-387;234;845;280;
45;805;801;828;760;760;388;378;-323;-375;234;845;276;
46;804;804;825;761;760;386;385;-334;-377;234;844;282;
47;808;806;819;761;763;386;399;-356;-358;234;845;274;
48;806;804;817;763;763;387;400;-361;-355;234;844;280;
49;806;807;818;765;764;386;408;-371;-345;234;844;279;
50;807;809;817;764;765;387;405;-372;-351;234;845;206;
51;804;809;815;763;767;387;403;-380;-347;234;845;206;
52;806;814;821;762;767;387;406;-379;-351;234;845;196;
53;806;814;823;763;767;388;393;-398;-360;234;845;196;
54;802;816;821;763;767;388;397;-393;-357;234;845;275;
55;805;819;824;763;768;386;386;-406;-367;234;845;275;
56;803;818;821;764;768;385;378;-410;-370;235;845;279;
57;804;816;821;765;766;385;370;-404;-371;234;845;279;
58;805;813;822;765;765;386;364;-409;-371;234;845;280;
59;806;813;826;764;766;385;370;-409;-373;234;845;279;
60;805;816;826;765;765;384;369;-404;-375;234;845;280;
61;804;812;824;766;765;383;362;-405;-374;234;844;279;
62;807;804;826;766;765;382;358;-401;-381;234;845;279;
63;808;806;829;766;763;384;358;-395;-385;234;845;206;
64;808;813;826;766;761;385;359;-388;-377;234;845;206;
65;805;808;825;767;763;384;368;-380;-372;234;845;196;
66;799;806;831;769;763;383;373;-379;-375;234;846;196;
67;800;813;836;770;763;382;368;-371;-371;234;845;275;
68;805;820;853;770;762;382;372;-348;-373;234;846;275;
69;807;824;872;772;764;383;367;-341;-370;235;846;279;
70;799;819;879;773;766;384;367;-318;-379;234;845;279;
71;800;819;898;770;767;383;363;-302;-381;234;846;279;
72;803;818;905;769;766;384;358;-282;-396;234;845;279;
73;802;814;901;769;766;385;355;-271;-400;234;845;278;
74;801;812;895;768;765;386;349;-263;-401;234;845;278;
75;801;803;881;768;764;385;349;-257;-400;234;845;277;
76;800;800;871;769;763;385;343;-249;-395;234;845;204;
77;800;796;871;769;763;383;354;-234;-393;234;845;204;
78;802;796;873;766;765;383;352;-235;-394;234;845;195;
79;802;799;869;764;765;384;350;-228;-393;234;846;269;
80;800;803;858;764;765;384;354;-227;-398;234;845;274;
81;801;806;855;764;765;384;345;-231;-400;234;845;274;
82;802;807;854;765;766;383;339;-232;-400;235;845;271;
83;804;806;854;765;765;384;349;-230;-407;234;845;270;
84;804;806;854;765;765;385;340;-232;-400;234;845;279;
85;803;805;852;765;765;385;339;-231;-401;234;845;279;
86;802;804;850;765;765;385;343;-230;-406;234;845;279;
87;803;804;851;765;765;384;346;-232;-407;234;846;279;
88;804;804;853;765;765;384;347;-233;-403;234;846;278;
89;804;803;852;765;765;384;343;-231;-408;234;845;205;
90;805;804;854;765;765;384;336;-232;-405;234;846;205;
91;805;804;854;765;765;384;343;-228;-407;234;845;195;
92;805;804;853;765;765;384;339;-226;-407;234;846;274;
93;805;803;854;765;765;384;330;-225;-411;235;845;275;
94;806;804;856;765;765;384;337;-222;-407;234;846;275;
95;805;803;853;765;765;384;336;-225;-405;235;845;279;
96;805;804;854;765;765;384;332;-226;-408;234;845;279;
97;804;804;852;765;765;384;335;-227;-406;234;845;279;
98;805;804;853;765;764;384;338;-228;-409;234;845;279;
99;805;806;853;765;765;384;336;-223;-412;234;845;279;
0;805;805;853;764;765;384;336;-225;-415;234;845;279;
1;805;804;854;765;764;384;343;-227;-412;234;844;278;
2;804;804;854;765;765;384;340;-228;-409;234;845;206;
3;804;805;853;765;765;384;334;-226;-411;234;845;206;
4;804;804;853;765;764;384;336;-224;-409;234;845;196;
5;805;804;854;765;764;385;334;-223;-414;234;841;275;
6;804;804;854;765;764;385;338;-225;-406;234;845;276;
7;804;804;854;765;765;384;338;-226;-410;234;845;275;
8;804;804;854;765;765;384;340;-223;-408;235;845;279;
9;805;804;853;765;764;384;338;-229;-405;234;845;279;
10;805;805;854;765;765;384;340;-224;-404;234;844;279;
11;804;804;855;765;765;384;338;-224;-404;234;845;280;
12;804;804;854;765;764;384;337;-219;-408;234;844;279;
13;804;804;853;765;765;384;335;-226;-412;234;845;279;
14;805;804;854;765;765;384;338;-222;-412;234;844;279;
15;805;804;854;765;765;385;342;-221;-403;234;845;206;
16;804;804;854;765;765;384;346;-220;-410;234;845;206;
17;804;804;854;765;765;385;334;-221;-406;234;845;197;
18;805;804;855;765;765;384;339;-227;-404;234;845;276;
19;805;804;854;765;764;384;338;-224;-409;234;845;276;
20;804;804;854;764;765;384;341;-229;-409;235;845;280;
21;805;804;855;765;764;384;343;-223;-411;235;845;280;
22;804;804;853;765;764;384;337;-223;-410;234;844;280;
23;804;805;853;765;765;384;335;-223;-407;234;845;281;
24;804;805;853;764;765;384;347;-226;-410;234;845;280;
25;804;805;854;764;765;385;343;-227;-407;235;844;280;
26;804;804;854;765;765;385;341;-225;-406;234;844;280;
27;804;804;854;765;765;385;344;-228;-401;234;844;279;
28;804;805;853;765;765;384;339;-227;-400;234;845;207;
29;804;805;854;765;765;384;342;-227;-409;234;844;207;
30;804;805;854;764;765;384;341;-228;-403;234;844;197;
31;805;804;854;765;765;384;342;-226;-406;234;844;277;
32;804;805;853;765;764;385;338;-233;-411;235;845;276;
33;804;805;854;764;765;385;340;-232;-408;235;844;280;
34;804;805;854;765;764;385;343;-232;-404;235;842;280;
35;804;805;854;765;765;384;338;-231;-407;234;845;281;
36;804;805;854;765;765;384;345;-228;-405;234;845;280;
37;804;805;853;765;764;384;343;-235;-408;234;845;280;
38;803;805;855;765;765;384;345;-233;-407;235;844;280;
39;804;805;854;764;765;384;346;-228;-404;234;845;280;
40;804;805;854;764;765;384;346;-234;-410;234;845;207;
41;804;806;853;765;765;384;344;-227;-402;234;845;207;
42;804;805;853;765;765;384;346;-230;-407;234;844;201;
43;804;805;853;765;765;384;343;-230;-406;234;845;197;
44;804;806;852;765;765;384;347;-228;-401;235;844;276;
45;803;806;853;765;764;384;348;-222;-403;235;843;276;
46;804;805;854;765;765;384;347;-230;-411;235;843;280;
47;804;805;853;765;765;384;349;-229;-412;235;844;280;
48;804;806;854;765;764;384;341;-227;-404;235;843;280;
49;804;805;854;765;765;384;344;-230;-400;234;844;280;
50;804;805;854;765;765;384;343;-230;-407;235;844;280;
51;804;805;854;765;765;385;348;-229;-404;235;845;280;
52;804;805;853;765;765;385;339;-230;-400;235;845;280;
53;804;805;852;765;765;384;339;-232;-405;235;845;207;
54;804;805;850;765;764;384;339;-230;-406;235;845;207;
55;804;806;847;764;765;384;350;-229;-404;234;845;201;
56;804;806;846;764;765;384;348;-233;-401;234;845;197;
57;804;806;846;764;765;384;342;-232;-402;235;845;276;
58;804;805;842;765;765;385;350;-232;-401;235;845;276;
59;805;805;837;764;765;384;345;-235;-404;235;844;280;
60;805;805;835;765;764;385;351;-239;-401;235;845;280;
61;805;804;826;765;764;385;338;-240;-399;235;844;287;
62;806;807;822;765;764;385;347;-242;-400;235;845;275;
63;808;809;816;765;764;386;347;-239;-396;235;844;280;
64;806;811;813;765;765;386;351;-236;-402;234;845;280;
65;806;808;808;767;765;385;352;-234;-401;234;844;280;
66;805;804;812;767;766;384;341;-228;-401;234;845;207;
67;803;795;806;768;765;384;336;-225;-408;234;844;208;
68;803;791;817;769;765;385;334;-214;-407;234;845;202;
69;804;787;844;770;768;386;328;-204;-407;234;845;194;
70;811;794;881;770;770;385;319;-181;-425;235;845;277;
71;816;796;905;771;769;386;308;-180;-429;235;845;276;
72;809;786;911;775;769;388;286;-150;-436;235;845;279;
73;808;787;907;775;769;388;277;-132;-444;235;845;279;
74;806;785;899;772;771;387;251;-96;-459;234;845;280;
75;821;785;903;769;775;386;237;-85;-460;234;845;270;
76;827;794;903;766;770;386;228;-78;-468;234;844;286;
77;826;789;885;767;762;385;210;-68;-472;235;845;272;
78;816;781;868;766;761;385;209;-64;-471;234;844;276;
79;813;783;859;765;761;385;222;-56;-466;235;845;217;
80;810;783;855;763;761;384;224;-60;-467;235;844;199;
81;808;786;855;762;761;384;238;-71;-453;234;845;197;
82;808;789;860;762;761;383;249;-78;-456;234;845;195;
83;812;794;867;762;762;383;254;-86;-449;235;845;274;
84;811;795;871;764;762;384;263;-87;-447;235;844;273;
85;809;792;876;764;763;384;276;-96;-443;235;845;278;
86;809;793;889;764;765;384;271;-94;-440;235;845;278;
87;810;794;894;763;765;383;275;-98;-440;234;845;278;
88;811;794;898;762;765;383;269;-104;-436;235;845;279;
89;812;791;895;761;765;383;271;-118;-436;234;845;280;
90;816;791;896;761;763;385;274;-124;-442;234;845;281;
91;813;789;889;761;763;386;279;-140;-445;235;845;281;
92;812;788;882;761;764;386;291;-154;-433;234;845;207;
93;811;787;866;761;764;387;288;-160;-437;235;845;206;
94;808;786;854;760;762;387;297;-175;-436;235;845;196;
95;809;788;847;760;763;388;304;-188;-429;234;844;195;
96;806;789;832;760;763;388;314;-212;-425;235;845;274;
97;805;788;817;760;762;386;319;-224;-415;235;844;275;
98;804;794;813;760;760;384;333;-242;-408;235;845;276;
99;804;800;806;761;762;384;339;-248;-400;235;845;275;
